Folder: acoustic_resonators/src/acoustic_resonators/xrays/processed_data

Note: README.md
# Overview of dataset

We use nanoscale acoustic confinement to excite coherent acoustic phonons (dynamical strain) with near-terahertz frequency, and demonstrate that such phonons can easily be excited when breaking the film-substrate epitaxy in the metallic perovskite SrRuO3. Moreover, thermal annealing of the free-standing membranes placed on a substrate with a similar lattice constant dramatically decreases the interfacial acoustic impedance mismatch, evidencing the reformation of chemical bonds and interfacial restructuring.

## Installation
Start by having `uv` installed. Then, download the data from [10.5281/zenodo.13220718](http://10.5281/zenodo.13220718/), using 

```shell
uv run data-download
```

To run any code in the project, you can create a virtual environment with `uv sync`, and activate with `source .venv/bin/activate`.

File: xrd_temperature.csv
temperature,number,2theta,lattice_spacing,intensity,norm_intensity,log_intensity,best_fit
750.0,15,43.6189,0.414674,1.0,7.57441e-07,0.382777,0.19039
750.0,15,44.0089,0.411179,1.5,1.13616e-06,0.558868,0.342331
750.0,15,44.3989,0.407747,1.0,7.57441e-07,0.382777,0.527661
750.0,15,44.7889,0.404377,3.0,2.27232e-06,0.859898,0.766921
750.0,15,45.1789,0.401067,7.0,5.30209e-06,1.22787,1.15701
750.0,15,45.5689,0.397815,45.5,3.44636e-05,2.04079,2.03015
750.0,15,45.9589,0.39462,177.167,0.000134193,2.63116,2.57713
750.0,15,46.3489,0.39148,46.5,3.5221e-05,2.05023,2.19484
750.0,15,46.7389,0.388395,10.6667,8.07937e-06,1.41081,1.35501
750.0,15,47.1289,0.385362,5.0,3.78721e-06,1.08175,0.938649
750.0,15,47.5189,0.38238,1.83333,1.38864e-06,0.646018,0.659286
25.0,16,44.2694,0.40888,1.5,5.14304e-07,0.214648,0.286289
25.0,16,44.6594,0.40549,4.16667,1.42862e-06,0.658345,0.460871
25.0,16,45.0494,0.40216,4.66667,1.60006e-06,0.707563,0.681297
25.0,16,45.4394,0.398889,8.16667,2.8001e-06,0.950601,0.985738
25.0,16,45.8294,0.395675,33.5,1.14861e-05,1.5636,1.59197
25.0,16,46.2194,0.392517,150.5,5.16018e-05,2.21609,2.16869
25.0,16,46.6094,0.389413,335.167,0.000114918,2.56382,2.63338
25.0,16,46.9994,0.386363,23.3333,8.00029e-06,1.40653,1.4864
25.0,16,47.3894,0.383364,7.66667,2.62867e-06,0.923163,1.01203
25.0,16,47.7794,0.380416,1.5,5.14304e-07,0.214648,0.70802
300.0,6,44.04,0.410903,1.33333,9.47076e-07,0.479813,0.372524
300.0,6,44.43,0.407476,1.0,7.10307e-07,0.354874,0.559424
300.0,6,44.82,0.404111,3.66667,2.60446e-06,0.919145,0.809751
300.0,6,45.21,0.400806,7.83333,5.56407e-06,1.24882,1.29002
300.0,6,45.6,0.397558,45.1667,3.20822e-05,2.00969,2.06344
300.0,6,45.99,0.394368,47.1667,3.35028e-05,2.02851,1.93882
300.0,6,46.38,0.391232,2402.67,0.00170663,3.73557,3.62738
300.0,6,46.77,0.388151,16.3333,1.16017e-05,1.56795,1.68881
300.0,6,47.16,0.385122,1.83333,1.30223e-06,0.618115,1.14368
300.0,6,47.55,0.382144,0.5,3.55154e-07,0.0538438,0.81526
100.0,2,44.0327,0.410968,0.833333,3.41197e-07,0.0364331,0.323693
100.0,2,44.4227,0.40754,2.16667,8.87113e-07,0.451406,0.4935
100.0,2,44.8127,0.404174,3.66667,1.50127e-06,0.679886,0.711792
100.0,2,45.2027,0.400867,8.66667,3.54845e-06,1.05347,1.04052
100.0,2,45.5927,0.397618,50.0,2.04718e-05,1.81458,1.79295
100.0,2,45.9827,0.394427,58.6667,2.40203e-05,1.88401,1.79326
100.0,2,46.3727,0.39129,2389.33,0.000978281,3.49389,3.43463
100.0,2,46.7627,0.388208,60.3333,2.47027e-05,1.89617,1.95834
100.0,2,47.1527,0.385178,8.16667,3.34373e-06,1.02766,1.28814
100.0,2,47.5427,0.3822,2.33333,9.55352e-07,0.483591,0.917845
400.0,8,43.7964,0.413075,1.16667,5.28184e-07,0.226213,0.231764
400.0,8,44.1864,0.40961,1.66667,7.54549e-07,0.381115,0.387925
400.0,8,44.5764,0.406206,2.5,1.13182e-06,0.557206,0.58223
400.0,8,44.9664,0.402863,5.83333,2.64092e-06,0.925183,0.849148
400.0,8,45.3564,0.39958,29.5,1.33555e-05,1.62909,1.61817
400.0,8,45.7464,0.396354,39.5,1.78828e-05,1.75586,1.6971
400.0,8,46.1364,0.393184,324.667,0.000146986,2.6707,2.65948
400.0,8,46.5264,0.390069,102.833,4.65557e-05,2.1714,2.19672
400.0,8,46.9164,0.387008,16.0,7.24367e-06,1.36339,1.37476
400.0,8,47.3064,0.383998,4.66667,2.11274e-06,0.828273,0.962085
400.0,8,47.6964,0.38104,2.66667,1.20728e-06,0.585235,0.684334
700.0,14,43.9469,0.41173,0.666667,2.71849e-07,-0.0622455,0.140644
700.0,14,44.3369,0.408289,1.16667,4.75735e-07,0.180793,0.312436
700.0,14,44.7269,0.404909,3.66667,1.49517e-06,0.678117,0.52738
700.0,14,45.1169,0.401589,6.0,2.44664e-06,0.891997,0.866406
700.0,14,45.5069,0.398328,50.0,2.03886e-05,1.81282,1.72853
700.0,14,45.8969,0.395124,85.5,3.48646e-05,2.04581,2.09694
700.0,14,46.2869,0.391976,214.167,8.73313e-05,2.4446,2.45129
700.0,14,46.6769,0.388882,18.0,7.33991e-06,1.36912,1.34599
700.0,14,47.0669,0.38584,7.66667,3.12626e-06,0.998452,0.875596
700.0,14,47.4569,0.382851,3.0,1.22332e-06,0.590967,0.572372
500.0,10,43.9453,0.411745,2.83333,1.08215e-06,0.537714,0.247394
500.0,10,44.3353,0.408303,2.5,9.54836e-07,0.483356,0.417286
500.0,10,44.7253,0.404923,2.83333,1.08215e-06,0.537714,0.632921
500.0,10,45.1153,0.401603,6.66667,2.54623e-06,0.909325,0.956854
500.0,10,45.5053,0.398341,50.3333,1.9224e-05,1.78727,1.87509
500.0,10,45.8953,0.395137,61.8333,2.36163e-05,1.87664,1.89955
500.0,10,46.2853,0.391989,2315.83,0.000884496,3.45012,3.43096
500.0,10,46.6753,0.388894,29.6667,1.13307e-05,1.55769,1.63128
500.0,10,47.0653,0.385853,10.5,4.01031e-06,1.10661,1.08816
500.0,10,47.4553,0.382863,4.33333,1.65505e-06,0.722238,0.757626
650.0,13,43.7798,0.413224,0.5,2.11359e-07,-0.171551,0.0909144
650.0,13,44.1698,0.409756,1.66667,7.04531e-07,0.351328,0.24955
650.0,13,44.5598,0.40635,2.16667,9.15891e-07,0.465271,0.44493
650.0,13,44.9498,0.403004,2.66667,1.12725e-06,0.555448,0.702766
650.0,13,45.3398,0.399718,23.1667,9.79299e-06,1.49434,1.43758
650.0,13,45.7298,0.39649,52.3333,2.21223e-05,1.84826,1.84375
650.0,13,46.1198,0.393318,5315.17,0.00224682,3.855,3.63223
650.0,13,46.5098,0.390201,32.6667,1.38088e-05,1.64358,1.73098
650.0,13,46.8998,0.387137,9.0,3.80447e-06,1.08372,1.08453
650.0,13,47.2898,0.384125,4.16667,1.76133e-06,0.749268,0.718981
150.0,3,43.9347,0.411839,0.833333,3.29852e-07,0.021746,0.279889
150.0,3,44.3247,0.408396,2.66667,1.05552e-06,0.526896,0.440703
150.0,3,44.7147,0.405014,4.16667,1.64926e-06,0.720716,0.643403
150.0,3,45.1047,0.401692,6.66667,2.63881e-06,0.924836,0.929576
150.0,3,45.4947,0.398429,32.1667,1.27323e-05,1.60833,1.62124
150.0,3,45.8847,0.395224,51.0,2.01869e-05,1.8085,1.73002
150.0,3,46.2747,0.392073,417.0,0.000165058,2.72106,2.74235
150.0,3,46.6647,0.388978,102.667,4.06377e-05,2.11236,2.18048
150.0,3,47.0547,0.385935,15.8333,6.26718e-06,1.3005,1.38232
150.0,3,47.4447,0.382943,4.66667,1.84717e-06,0.769934,0.976634
150.0,3,47.8347,0.380002,2.83333,1.1215e-06,0.553225,0.702555
600.0,12,44.003,0.411231,1.0,3.86187e-07,0.0902249,0.222055
600.0,12,44.393,0.407799,1.83333,7.08009e-07,0.353466,0.399349
600.0,12,44.783,0.404428,2.66667,1.02983e-06,0.516194,0.625707
600.0,12,45.173,0.401117,10.5,4.05496e-06,1.11141,1.02069
600.0,12,45.563,0.397864,52.0,2.00817e-05,1.80623,1.83059
600.0,12,45.953,0.394668,117.667,4.54413e-05,2.16088,2.15461
600.0,12,46.343,0.391527,181.333,7.00285e-05,2.3487,2.45374
600.0,12,46.733,0.388441,19.1667,7.40191e-06,1.37277,1.38725
600.0,12,47.123,0.385407,6.83333,2.63894e-06,0.924857,0.924719
600.0,12,47.513,0.382425,3.0,1.15856e-06,0.567346,0.625286
350.0,7,44.0335,0.410961,2.33333,1.00842e-06,0.507067,0.332895
350.0,7,44.4235,0.407533,2.33333,1.00842e-06,0.507067,0.509196
350.0,7,44.8135,0.404167,2.66667,1.15247e-06,0.565059,0.739586
350.0,7,45.2035,0.40086,8.83333,3.81757e-06,1.08521,1.13225
350.0,7,45.5935,0.397612,45.1667,1.952e-05,1.79391,1.87496
350.0,7,45.9835,0.39442,82.8333,3.57987e-05,2.0573,1.98123
350.0,7,46.3735,0.391284,1477.17,0.000638399,3.30852,3.34737
350.0,7,46.7635,0.388202,32.3333,1.39738e-05,1.64874,1.67469
350.0,7,47.1535,0.385172,11.5,4.97005e-06,1.19979,1.14156
350.0,7,47.5435,0.382194,2.33333,1.00842e-06,0.507067,0.815094
27.0,1,44.0995,0.410376,1.4,3.65425e-07,0.0662254,0.267461
27.0,1,44.4895,0.406959,1.6,4.17628e-07,0.124217,0.42515
27.0,1,44.8795,0.403603,2.4,6.26442e-07,0.300309,0.618993
27.0,1,45.2695,0.400306,9.4,2.45357e-06,0.893225,0.87833
27.0,1,45.6595,0.397068,62.2,1.62353e-05,1.71389,1.70021
27.0,1,46.0495,0.393886,84.8,2.21343e-05,1.84849,1.77141
27.0,1,46.4395,0.390759,16741.2,0.00436975,4.14388,4.05202
27.0,1,46.8295,0.387685,82.0,2.14034e-05,1.83391,1.89663
27.0,1,47.2195,0.384664,15.0,3.91526e-06,1.09619,1.26008
27.0,1,47.6095,0.381695,5.2,1.35729e-06,0.636101,0.8969
200.0,4,43.9213,0.411958,1.5,6.20878e-07,0.296434,0.283972
200.0,4,44.3113,0.408513,2.0,8.27838e-07,0.421373,0.44471
200.0,4,44.7013,0.405129,2.83333,1.17277e-06,0.57264,0.647304
200.0,4,45.0913,0.401805,8.16667,3.38034e-06,1.03239,0.933654
200.0,4,45.4813,0.39854,31.1667,1.29005e-05,1.61403,1.64919
200.0,4,45.8713,0.395333,46.6667,1.93162e-05,1.78935,1.71701
200.0,4,46.2613,0.392181,478.833,0.000198198,2.80053,2.81518
200.0,4,46.6513,0.389083,94.1667,3.89774e-05,2.09424,2.15528
200.0,4,47.0413,0.386038,15.0,6.20878e-06,1.29643,1.37596
200.0,4,47.4313,0.383045,6.0,2.48351e-06,0.898494,0.974625
200.0,4,47.8213,0.380103,2.16667,8.96824e-07,0.456135,0.702367
250.0,5,44.1907,0.409572,2.5,1.12772e-06,0.555627,0.386941
250.0,5,44.5807,0.406169,2.5,1.12772e-06,0.555627,0.576284
250.0,5,44.9707,0.402827,5.5,2.48097e-06,0.89805,0.833289
250.0,5,45.3607,0.399544,14.3333,6.46557e-06,1.31403,1.39914
250.0,5,45.7507,0.396319,34.6667,1.56377e-05,1.6976,1.74265
250.0,5,46.1407,0.39315,137.167,6.1874e-05,2.29494,2.31397
250.0,5,46.5307,0.390035,210.833,9.5104e-05,2.48163,2.53022
250.0,5,46.9207,0.386974,20.3333,9.17209e-06,1.4659,1.50097
250.0,5,47.3107,0.383965,4.83333,2.18025e-06,0.841934,1.04602
250.0,5,47.7007,0.381007,1.66667,7.5181e-07,0.379536,0.750294
450.0,9,43.9901,0.411346,0.833333,3.4923e-07,0.0465389,0.292078
450.0,9,44.3801,0.407911,1.83333,7.68306e-07,0.388962,0.465952
450.0,9,44.7701,0.404538,4.16667,1.74615e-06,0.745509,0.689799
450.0,9,45.1601,0.401225,10.3333,4.33045e-06,1.13996,1.0988
450.0,9,45.5501,0.397971,55.8333,2.33984e-05,1.87261,1.88513
450.0,9,45.9401,0.394773,81.1667,3.4015e-05,2.0351,1.9755
450.0,9,46.3301,0.39163,1127.17,0.000472368,3.17771,3.19628
450.0,9,46.7201,0.388542,30.5,1.27818e-05,1.61002,1.62293
450.0,9,47.1101,0.385507,9.0,3.77168e-06,1.07996,1.0976
450.0,9,47.5001,0.382523,2.83333,1.18738e-06,0.578018,0.773768
550.0,11,43.8463,0.412628,1.83333,7.21432e-07,0.361623,0.211371
550.0,11,44.2363,0.409171,1.83333,7.21432e-07,0.361623,0.373028
550.0,11,44.6263,0.405775,2.83333,1.11494e-06,0.550679,0.573896
550.0,11,45.0163,0.40244,8.0,3.14807e-06,1.00147,0.850831
550.0,11,45.4063,0.399164,39.8333,1.56748e-05,1.69863,1.65048
550.0,11,45.7963,0.395945,54.6667,2.15118e-05,1.8361,1.82886
550.0,11,46.1863,0.392783,27255.7,0.0107253,4.53384,4.35245
550.0,11,46.5763,0.389675,43.3333,1.7052e-05,1.7352,1.79015
550.0,11,46.9663,0.38662,10.3333,4.06625e-06,1.11262,1.16867
550.0,11,47.3563,0.383617,3.83333,1.50845e-06,0.681958,0.811204
550.0,11,47.7013,0.381003,2.0,7.87017e-07,0.399412,0.584757

File: xrd_temperature_params.csv
temperature,number,amp1,cen1,sigma1,fraction1,amp2,cen2,sigma2,fraction2,c1,c2
27.0,1,1.35265e+06,46.4692,0.00530607,0.731394,36.3939,45.6965,0.121421,0.858764,0.390523,0.396763
100.0,2,2.8273e+06,46.4326,0.00488423,0.854681,62.3985,45.6884,0.161906,0.314258,0.390814,0.39683
150.0,3,3.98198e+06,46.4086,0.00498922,0.900266,59.8101,45.6538,0.148854,0.349043,0.391004,0.397115
200.0,4,2.25755e+06,46.3854,0.00510621,0.829116,62.4214,45.6244,0.137984,0.345508,0.391189,0.397357
250.0,5,2.45327e+06,46.3603,0.00510727,0.846318,70.6688,45.5906,0.126174,0.388583,0.39139,0.397636
300.0,6,2.12253e+06,46.334,0.00558399,0.862781,99.4573,45.5857,0.164943,0.435404,0.391599,0.397676
350.0,7,1.75267e+06,46.3075,0.00510749,0.786762,63.8301,45.5393,0.127788,0.415266,0.391811,0.39806
400.0,8,2.51904e+06,46.2806,0.00504801,0.852341,64.2735,45.5172,0.138048,0.588172,0.392026,0.398243
450.0,9,2.23158e+06,46.2545,0.00529499,0.855654,59.8669,45.5231,0.148699,0.645505,0.392236,0.398194
500.0,10,3.23391e+06,46.2296,0.00498223,0.894815,61.0918,45.537,0.135156,0.658277,0.392435,0.398079
550.0,11,2.56158e+06,46.2054,0.00480935,0.857498,52.8253,45.5599,0.157927,0.752985,0.392629,0.39789
600.0,12,1.99121e+06,46.1824,0.00505377,0.855897,48.6142,45.5666,0.157347,0.744519,0.392814,0.397834
650.0,13,2.74664e+06,46.1587,0.00517327,0.910122,57.8865,45.5757,0.15292,0.842934,0.393004,0.397759
700.0,14,3.44392e+06,46.1355,0.0050537,0.92631,44.112,45.6075,0.174706,0.939325,0.393191,0.397497
750.0,15,2.73011e+06,46.1121,0.00492365,0.868037,78.2774,45.5862,0.14994,0.678901,0.39338,0.397672
25.0,16,2.37231e+06,46.4688,0.00506116,0.860323,33.7639,45.9871,0.158505,0.3736,0.390526,0.394391