Folder: acoustic_resonators/src/acoustic_resonators/asops/processed_data

Note: README.md
# Overview of dataset

We use nanoscale acoustic confinement to excite coherent acoustic phonons (dynamical strain) with near-terahertz frequency, and demonstrate that such phonons can easily be excited when breaking the film-substrate epitaxy in the metallic perovskite SrRuO3. Moreover, thermal annealing of the free-standing membranes placed on a substrate with a similar lattice constant dramatically decreases the interfacial acoustic impedance mismatch, evidencing the reformation of chemical bonds and interfacial restructuring.

## Installation
Start by having `uv` installed. Then, download the data from [10.5281/zenodo.13220718](http://10.5281/zenodo.13220718/), using 

```shell
uv run data-download
```

To run any code in the project, you can create a virtual environment with `uv sync`, and activate with `source .venv/bin/activate`.

File: xrd.csv
2theta,intensity,T
10.0,3.06312e-07,60.0
10.56,5.51362e-07,60.0
11.12,5.51362e-07,60.0
11.68,1.22525e-07,60.0
12.24,1.83787e-07,60.0
12.8,2.4505e-07,60.0
13.36,3.67575e-07,60.0
13.92,4.28837e-07,60.0
14.48,3.06312e-07,60.0
15.04,6.12625e-07,60.0
15.6,2.4505e-07,60.0
16.16,1.83787e-07,60.0
16.72,6.73887e-07,60.0
17.28,1.22525e-07,60.0
17.84,4.28837e-07,60.0
18.4,3.67575e-07,60.0
18.96,5.51362e-07,60.0
19.52,4.901e-07,60.0
20.08,2.4505e-07,60.0
20.64,7.3515e-07,60.0
21.2,9.802e-07,60.0
21.76,1.89914e-06,60.0
22.32,9.61821e-06,60.0
22.88,4.61306e-05,60.0
23.44,1.34777e-06,60.0
24.0,6.73887e-07,60.0
24.56,2.4505e-07,60.0
25.12,2.4505e-07,60.0
25.68,3.06312e-07,60.0
26.24,4.28837e-07,60.0
26.8,3.06312e-07,60.0
27.36,3.67575e-07,60.0
27.92,1.22525e-07,60.0
28.48,4.28837e-07,60.0
29.04,3.67575e-07,60.0
29.6,1.83787e-07,60.0
30.16,1.22525e-07,60.0
30.72,6.73887e-07,60.0
31.28,3.67575e-07,60.0
31.84,3.06312e-07,60.0
32.4,1.22525e-07,60.0
32.96,2.4505e-07,60.0
33.52,1.22525e-07,60.0
34.08,2.4505e-07,60.0
34.64,2.4505e-07,60.0
35.2,3.06312e-07,60.0
35.76,1.83787e-07,60.0
36.32,1.22525e-07,60.0
36.88,1.83787e-07,60.0
37.44,3.06312e-07,60.0
38.0,2.4505e-07,60.0
38.56,3.06312e-07,60.0
39.12,2.4505e-07,60.0
39.68,3.67575e-07,60.0
40.24,3.67575e-07,60.0
40.8,3.67575e-07,60.0
41.36,3.67575e-07,60.0
41.92,6.12625e-07,60.0
42.48,1.10272e-06,60.0
43.04,1.28651e-06,60.0
43.6,2.63429e-06,60.0
44.16,3.00186e-06,60.0
44.72,3.24691e-06,60.0
45.28,8.94432e-06,60.0
45.84,0.000136186,60.0
46.4,0.00485187,60.0
46.96,3.48583e-05,60.0
47.52,7.90286e-06,60.0
48.08,3.4307e-06,60.0
48.64,1.89914e-06,60.0
49.2,1.16399e-06,60.0
49.76,6.12625e-07,60.0
50.32,5.51362e-07,60.0
50.88,6.12625e-07,60.0
51.44,2.4505e-07,60.0
52.0,3.06312e-07,60.0
52.56,6.12625e-08,60.0
53.12,1.83787e-07,60.0
53.68,3.06312e-07,60.0
54.24,3.06312e-07,60.0
54.8,1.83787e-07,60.0
55.36,0.0,60.0
55.92,1.83787e-07,60.0
56.48,6.12625e-08,60.0
57.04,1.83787e-07,60.0
57.6,1.22525e-07,60.0
58.16,1.22525e-07,60.0
58.72,6.12625e-08,60.0
59.28,0.0,60.0
59.84,0.0,60.0
10.38,4.16387e-07,350.0
10.94,4.16387e-07,350.0
11.5,2.37936e-07,350.0
12.06,2.9742e-07,350.0
12.62,7.13807e-07,350.0
13.18,1.78452e-07,350.0
13.74,1.78452e-07,350.0
14.3,4.75871e-07,350.0
14.86,1.18968e-07,350.0
15.42,4.16387e-07,350.0
15.98,2.9742e-07,350.0
16.54,2.37936e-07,350.0
17.1,5.94839e-08,350.0
17.66,2.9742e-07,350.0
18.22,2.9742e-07,350.0
18.78,4.16387e-07,350.0
19.34,3.56904e-07,350.0
19.9,4.16387e-07,350.0
20.46,7.13807e-07,350.0
21.02,5.94839e-07,350.0
21.58,1.42761e-06,350.0
22.14,3.21213e-06,350.0
22.7,0.0015586,350.0
23.26,2.26039e-06,350.0
23.82,8.92259e-07,350.0
24.38,3.56904e-07,350.0
24.94,2.37936e-07,350.0
25.5,1.18968e-07,350.0
26.06,5.94839e-08,350.0
26.62,1.18968e-07,350.0
27.18,1.78452e-07,350.0
27.74,3.56904e-07,350.0
28.3,2.9742e-07,350.0
28.86,2.37936e-07,350.0
29.42,2.37936e-07,350.0
29.98,5.94839e-08,350.0
30.54,1.18968e-07,350.0
31.1,2.9742e-07,350.0
31.66,1.18968e-07,350.0
32.22,4.75871e-07,350.0
32.78,1.78452e-07,350.0
33.34,1.78452e-07,350.0
33.9,2.37936e-07,350.0
34.46,1.18968e-07,350.0
35.02,5.94839e-08,350.0
35.58,1.18968e-07,350.0
36.14,2.37936e-07,350.0
36.7,3.56904e-07,350.0
37.26,5.94839e-08,350.0
37.82,3.56904e-07,350.0
38.38,1.78452e-07,350.0
38.94,2.37936e-07,350.0
39.5,5.94839e-07,350.0
40.06,4.16387e-07,350.0
40.62,3.56904e-07,350.0
41.18,6.54323e-07,350.0
41.74,7.13807e-07,350.0
42.3,7.13807e-07,350.0
42.86,9.51743e-07,350.0
43.42,1.30865e-06,350.0
43.98,1.96297e-06,350.0
44.54,3.688e-06,350.0
45.1,6.48375e-06,350.0
45.66,2.29608e-05,350.0
46.22,0.000191717,350.0
46.78,8.25042e-05,350.0
47.34,1.21347e-05,350.0
47.9,3.50955e-06,350.0
48.46,2.08194e-06,350.0
49.02,1.18968e-06,350.0
49.58,9.51743e-07,350.0
50.14,3.56904e-07,350.0
50.7,9.51743e-07,350.0
51.26,5.94839e-07,350.0
51.82,2.37936e-07,350.0
52.38,1.18968e-07,350.0
52.94,2.9742e-07,350.0
53.5,2.37936e-07,350.0
54.06,3.56904e-07,350.0
54.62,2.37936e-07,350.0
55.18,5.94839e-08,350.0
55.74,0.0,350.0
56.3,1.18968e-07,350.0
56.86,0.0,350.0
57.42,1.78452e-07,350.0
57.98,1.18968e-07,350.0
58.54,5.94839e-08,350.0
59.1,5.94839e-08,350.0
59.66,0.0,350.0
10.2,4.52967e-07,550.0
10.76,4.52967e-07,550.0
11.32,6.47096e-07,550.0
11.88,3.88257e-07,550.0
12.44,5.82386e-07,550.0
13.0,4.52967e-07,550.0
13.56,3.23548e-07,550.0
14.12,3.88257e-07,550.0
14.68,2.58838e-07,550.0
15.24,1.94129e-07,550.0
15.8,1.94129e-07,550.0
16.36,1.29419e-07,550.0
16.92,3.88257e-07,550.0
17.48,3.88257e-07,550.0
18.04,3.88257e-07,550.0
18.6,3.23548e-07,550.0
19.16,7.76515e-07,550.0
19.72,4.52967e-07,550.0
20.28,6.47096e-07,550.0
20.84,9.70643e-07,550.0
21.4,1.94129e-07,550.0
21.96,2.07071e-06,550.0
22.52,3.7661e-05,550.0
23.08,7.31218e-06,550.0
23.64,1.74716e-06,550.0
24.2,3.88257e-07,550.0
24.76,1.94129e-07,550.0
25.32,5.17676e-07,550.0
25.88,6.47096e-08,550.0
26.44,2.58838e-07,550.0
27.0,2.58838e-07,550.0
27.56,1.94129e-07,550.0
28.12,2.58838e-07,550.0
28.68,1.94129e-07,550.0
29.24,3.23548e-07,550.0
29.8,3.23548e-07,550.0
30.36,6.47096e-08,550.0
30.92,2.58838e-07,550.0
31.48,2.58838e-07,550.0
32.04,6.47096e-08,550.0
32.6,0.0,550.0
33.16,1.29419e-07,550.0
33.72,1.94129e-07,550.0
34.28,2.58838e-07,550.0
34.84,3.23548e-07,550.0
35.4,2.58838e-07,550.0
35.96,1.94129e-07,550.0
36.52,1.29419e-07,550.0
37.08,3.23548e-07,550.0
37.64,6.47096e-08,550.0
38.2,0.0,550.0
38.76,2.58838e-07,550.0
39.32,2.58838e-07,550.0
39.88,3.23548e-07,550.0
40.44,1.94129e-07,550.0
41.0,3.88257e-07,550.0
41.56,5.17676e-07,550.0
42.12,7.11805e-07,550.0
42.68,3.88257e-07,550.0
43.24,1.3589e-06,550.0
43.8,2.006e-06,550.0
44.36,2.84722e-06,550.0
44.92,5.62973e-06,550.0
45.48,1.52715e-05,550.0
46.04,0.000161062,550.0
46.6,0.000601799,550.0
47.16,2.1613e-05,550.0
47.72,6.72979e-06,550.0
48.28,3.04135e-06,550.0
48.84,1.74716e-06,550.0
49.4,1.42361e-06,550.0
49.96,7.11805e-07,550.0
50.52,3.88257e-07,550.0
51.08,4.52967e-07,550.0
51.64,1.29419e-07,550.0
52.2,1.29419e-07,550.0
52.76,2.58838e-07,550.0
53.32,1.29419e-07,550.0
53.88,2.58838e-07,550.0
54.44,6.47096e-08,550.0
55.0,6.47096e-08,550.0
55.56,1.29419e-07,550.0
56.12,0.0,550.0
56.68,0.0,550.0
57.24,1.94129e-07,550.0
57.8,6.47096e-08,550.0
58.36,0.0,550.0
58.92,6.47096e-08,550.0
59.48,2.58838e-07,550.0
40.02,6.27064e-08,750.0
40.58,4.38945e-07,750.0
41.14,2.50826e-07,750.0
41.7,3.76239e-07,750.0
42.26,4.38945e-07,750.0
42.82,1.0033e-06,750.0
43.38,8.15184e-07,750.0
43.94,1.69307e-06,750.0
44.5,2.63367e-06,750.0
45.06,5.76899e-06,750.0
45.62,1.53631e-05,750.0
46.18,0.000131119,750.0
46.74,0.000117449,750.0
47.3,1.21023e-05,750.0
47.86,4.07592e-06,750.0
48.42,1.69307e-06,750.0
48.98,1.06601e-06,750.0
49.54,5.01651e-07,750.0
50.1,8.7789e-07,750.0
50.66,4.38945e-07,750.0
51.22,1.25413e-07,750.0
51.78,1.88119e-07,750.0
52.34,6.27064e-08,750.0
52.9,6.27064e-08,750.0
53.46,2.50826e-07,750.0
54.02,0.0,750.0
54.58,3.76239e-07,750.0
55.0,6.27064e-08,750.0

File: xrd_FM308.csv
2theta,intensity,temperature,ID
10.0,3.06312e-07,60,FM308_membrane
10.02,5.51362e-07,60,FM308_membrane
10.04,3.67575e-07,60,FM308_membrane
10.06,6.12625e-07,60,FM308_membrane
10.08,6.73887e-07,60,FM308_membrane
10.1,6.12625e-07,60,FM308_membrane
10.12,4.901e-07,60,FM308_membrane
10.14,3.06312e-07,60,FM308_membrane
10.16,4.901e-07,60,FM308_membrane
10.18,4.28837e-07,60,FM308_membrane
10.2,6.12625e-07,60,FM308_membrane
10.22,1.22525e-07,60,FM308_membrane
10.24,7.96412e-07,60,FM308_membrane
10.26,3.67575e-07,60,FM308_membrane
10.28,3.06312e-07,60,FM308_membrane
10.3,4.28837e-07,60,FM308_membrane
10.32,6.12625e-07,60,FM308_membrane
10.34,4.28837e-07,60,FM308_membrane
10.36,2.4505e-07,60,FM308_membrane
10.38,1.83787e-07,60,FM308_membrane
10.4,4.901e-07,60,FM308_membrane
10.42,6.12625e-08,60,FM308_membrane
10.44,2.4505e-07,60,FM308_membrane
10.46,5.51362e-07,60,FM308_membrane
10.48,1.83787e-07,60,FM308_membrane
10.5,4.901e-07,60,FM308_membrane
10.52,6.12625e-07,60,FM308_membrane
10.54,4.28837e-07,60,FM308_membrane
10.56,5.51362e-07,60,FM308_membrane
10.58,4.28837e-07,60,FM308_membrane
10.6,3.67575e-07,60,FM308_membrane
10.62,1.22525e-07,60,FM308_membrane
10.64,3.06312e-07,60,FM308_membrane
10.66,6.12625e-07,60,FM308_membrane
10.68,1.83787e-07,60,FM308_membrane
10.7,7.3515e-07,60,FM308_membrane
10.72,4.28837e-07,60,FM308_membrane
10.74,5.51362e-07,60,FM308_membrane
10.76,1.83787e-07,60,FM308_membrane
10.78,6.12625e-07,60,FM308_membrane
10.8,2.4505e-07,60,FM308_membrane
10.82,4.901e-07,60,FM308_membrane
10.84,2.4505e-07,60,FM308_membrane
10.86,2.4505e-07,60,FM308_membrane
10.88,3.67575e-07,60,FM308_membrane
10.9,3.06312e-07,60,FM308_membrane
10.92,4.28837e-07,60,FM308_membrane
10.94,4.28837e-07,60,FM308_membrane
10.96,3.06312e-07,60,FM308_membrane
10.98,4.901e-07,60,FM308_membrane
11.0,4.901e-07,60,FM308_membrane
11.02,6.73887e-07,60,FM308_membrane
11.04,4.28837e-07,60,FM308_membrane
11.06,6.12625e-07,60,FM308_membrane
11.08,4.28837e-07,60,FM308_membrane
11.1,1.83787e-07,60,FM308_membrane
11.12,5.51362e-07,60,FM308_membrane
11.14,4.901e-07,60,FM308_membrane
11.16,2.4505e-07,60,FM308_membrane
11.18,3.67575e-07,60,FM308_membrane
11.2,3.67575e-07,60,FM308_membrane
11.22,4.28837e-07,60,FM308_membrane
11.24,2.4505e-07,60,FM308_membrane
11.26,4.28837e-07,60,FM308_membrane
11.28,6.73887e-07,60,FM308_membrane
11.3,1.83787e-07,60,FM308_membrane
11.32,5.51362e-07,60,FM308_membrane
11.34,2.4505e-07,60,FM308_membrane
11.36,3.06312e-07,60,FM308_membrane
11.38,1.83787e-07,60,FM308_membrane
11.4,3.06312e-07,60,FM308_membrane
11.42,2.4505e-07,60,FM308_membrane
11.44,3.67575e-07,60,FM308_membrane
11.46,3.06312e-07,60,FM308_membrane
11.48,4.28837e-07,60,FM308_membrane
11.5,2.4505e-07,60,FM308_membrane
11.52,4.28837e-07,60,FM308_membrane
11.54,6.12625e-07,60,FM308_membrane
11.56,3.67575e-07,60,FM308_membrane
11.58,4.28837e-07,60,FM308_membrane
11.6,6.12625e-08,60,FM308_membrane
11.62,3.06312e-07,60,FM308_membrane
11.64,6.12625e-08,60,FM308_membrane
11.66,4.28837e-07,60,FM308_membrane
11.68,1.22525e-07,60,FM308_membrane
11.7,3.06312e-07,60,FM308_membrane
11.72,3.06312e-07,60,FM308_membrane
11.74,3.67575e-07,60,FM308_membrane
11.76,3.06312e-07,60,FM308_membrane
11.78,3.67575e-07,60,FM308_membrane
11.8,4.28837e-07,60,FM308_membrane
11.82,3.06312e-07,60,FM308_membrane
11.84,1.83787e-07,60,FM308_membrane
11.86,3.06312e-07,60,FM308_membrane
11.88,5.51362e-07,60,FM308_membrane
11.9,4.28837e-07,60,FM308_membrane
11.92,5.51362e-07,60,FM308_membrane
11.94,5.51362e-07,60,FM308_membrane
11.96,3.06312e-07,60,FM308_membrane
11.98,4.28837e-07,60,FM308_membrane
12.0,4.901e-07,60,FM308_membrane
12.02,1.22525e-07,60,FM308_membrane
12.04,3.67575e-07,60,FM308_membrane
12.06,5.51362e-07,60,FM308_membrane
12.08,6.12625e-08,60,FM308_membrane
12.1,3.06312e-07,60,FM308_membrane
12.12,4.28837e-07,60,FM308_membrane
12.14,3.06312e-07,60,FM308_membrane
12.16,4.901e-07,60,FM308_membrane
12.18,1.22525e-07,60,FM308_membrane
12.2,1.83787e-07,60,FM308_membrane
12.22,3.06312e-07,60,FM308_membrane
12.24,1.83787e-07,60,FM308_membrane
12.26,4.28837e-07,60,FM308_membrane
12.28,1.83787e-07,60,FM308_membrane
12.3,6.12625e-07,60,FM308_membrane
12.32,6.12625e-08,60,FM308_membrane
12.34,4.28837e-07,60,FM308_membrane
12.36,6.73887e-07,60,FM308_membrane
12.38,2.4505e-07,60,FM308_membrane
12.4,3.06312e-07,60,FM308_membrane
12.42,4.28837e-07,60,FM308_membrane
12.44,3.67575e-07,60,FM308_membrane
12.46,3.67575e-07,60,FM308_membrane
12.48,3.06312e-07,60,FM308_membrane
12.5,3.06312e-07,60,FM308_membrane
12.52,3.06312e-07,60,FM308_membrane
12.54,5.51362e-07,60,FM308_membrane
12.56,4.28837e-07,60,FM308_membrane
12.58,1.83787e-07,60,FM308_membrane
12.6,3.06312e-07,60,FM308_membrane
12.62,3.67575e-07,60,FM308_membrane
12.64,3.67575e-07,60,FM308_membrane
12.66,6.12625e-07,60,FM308_membrane
12.68,3.67575e-07,60,FM308_membrane
12.7,5.51362e-07,60,FM308_membrane
12.72,1.83787e-07,60,FM308_membrane
12.74,2.4505e-07,60,FM308_membrane
12.76,3.67575e-07,60,FM308_membrane
12.78,3.67575e-07,60,FM308_membrane
12.8,2.4505e-07,60,FM308_membrane
12.82,5.51362e-07,60,FM308_membrane
12.84,4.28837e-07,60,FM308_membrane
12.86,3.06312e-07,60,FM308_membrane
12.88,2.4505e-07,60,FM308_membrane
12.9,3.06312e-07,60,FM308_membrane
12.92,2.4505e-07,60,FM308_membrane
12.94,5.51362e-07,60,FM308_membrane
12.96,7.3515e-07,60,FM308_membrane
12.98,1.22525e-07,60,FM308_membrane
13.0,2.4505e-07,60,FM308_membrane
13.02,4.901e-07,60,FM308_membrane
13.04,2.4505e-07,60,FM308_membrane
13.06,6.12625e-07,60,FM308_membrane
13.08,1.83787e-07,60,FM308_membrane
13.1,1.22525e-07,60,FM308_membrane
13.12,2.4505e-07,60,FM308_membrane
13.14,1.83787e-07,60,FM308_membrane
13.16,6.73887e-07,60,FM308_membrane
13.18,3.67575e-07,60,FM308_membrane
13.2,2.4505e-07,60,FM308_membrane
13.22,2.4505e-07,60,FM308_membrane
13.24,3.06312e-07,60,FM308_membrane
13.26,6.12625e-07,60,FM308_membrane
13.28,1.22525e-07,60,FM308_membrane
13.3,1.83787e-07,60,FM308_membrane
13.32,1.22525e-07,60,FM308_membrane
13.34,6.12625e-08,60,FM308_membrane
13.36,3.67575e-07,60,FM308_membrane
13.38,6.12625e-08,60,FM308_membrane
13.4,1.83787e-07,60,FM308_membrane
13.42,1.22525e-07,60,FM308_membrane
13.44,4.901e-07,60,FM308_membrane
13.46,2.4505e-07,60,FM308_membrane
13.48,4.901e-07,60,FM308_membrane
13.5,3.67575e-07,60,FM308_membrane
13.52,1.83787e-07,60,FM308_membrane
13.54,2.4505e-07,60,FM308_membrane
13.56,4.28837e-07,60,FM308_membrane
13.58,4.901e-07,60,FM308_membrane
13.6,4.901e-07,60,FM308_membrane
13.62,6.12625e-07,60,FM308_membrane
13.64,4.28837e-07,60,FM308_membrane
13.66,3.67575e-07,60,FM308_membrane
13.68,3.06312e-07,60,FM308_membrane
13.7,3.67575e-07,60,FM308_membrane
13.72,1.22525e-07,60,FM308_membrane
13.74,3.06312e-07,60,FM308_membrane
13.76,4.28837e-07,60,FM308_membrane
13.78,4.901e-07,60,FM308_membrane
13.8,4.28837e-07,60,FM308_membrane
13.82,3.06312e-07,60,FM308_membrane
13.84,4.901e-07,60,FM308_membrane
13.86,3.06312e-07,60,FM308_membrane
13.88,4.28837e-07,60,FM308_membrane
13.9,4.901e-07,60,FM308_membrane
13.92,4.28837e-07,60,FM308_membrane
13.94,2.4505e-07,60,FM308_membrane
13.96,2.4505e-07,60,FM308_membrane
13.98,1.83787e-07,60,FM308_membrane
14.0,3.06312e-07,60,FM308_membrane
14.02,2.4505e-07,60,FM308_membrane
14.04,6.12625e-07,60,FM308_membrane
14.06,4.901e-07,60,FM308_membrane
14.08,5.51362e-07,60,FM308_membrane
[...]
57.66,2.27027e-07,20,FM308_stack
57.68,3.4054e-07,20,FM308_stack
57.7,0.0,20,FM308_stack
57.72,1.13513e-07,20,FM308_stack
57.74,0.0,20,FM308_stack
57.76,1.13513e-07,20,FM308_stack
57.78,2.27027e-07,20,FM308_stack
57.8,2.27027e-07,20,FM308_stack
57.82,2.27027e-07,20,FM308_stack
57.84,0.0,20,FM308_stack
57.86,0.0,20,FM308_stack
57.88,1.13513e-07,20,FM308_stack
57.9,1.13513e-07,20,FM308_stack
57.92,0.0,20,FM308_stack
57.94,2.27027e-07,20,FM308_stack
57.96,2.27027e-07,20,FM308_stack
57.98,0.0,20,FM308_stack
58.0,4.54054e-07,20,FM308_stack
58.02,3.4054e-07,20,FM308_stack
58.04,1.13513e-07,20,FM308_stack
58.06,1.13513e-07,20,FM308_stack
58.08,2.27027e-07,20,FM308_stack
58.1,2.27027e-07,20,FM308_stack
58.12,0.0,20,FM308_stack
58.14,2.27027e-07,20,FM308_stack
58.16,2.27027e-07,20,FM308_stack
58.18,2.27027e-07,20,FM308_stack
58.2,1.13513e-07,20,FM308_stack
58.22,0.0,20,FM308_stack
58.24,1.13513e-07,20,FM308_stack
58.26,1.13513e-07,20,FM308_stack
58.28,2.27027e-07,20,FM308_stack
58.3,0.0,20,FM308_stack
58.32,1.13513e-07,20,FM308_stack
58.34,1.13513e-07,20,FM308_stack
58.36,2.27027e-07,20,FM308_stack
58.38,3.4054e-07,20,FM308_stack
58.4,1.13513e-07,20,FM308_stack
58.42,2.27027e-07,20,FM308_stack
58.44,2.27027e-07,20,FM308_stack
58.46,4.54054e-07,20,FM308_stack
58.48,2.27027e-07,20,FM308_stack
58.5,1.13513e-07,20,FM308_stack
58.52,1.13513e-07,20,FM308_stack
58.54,1.13513e-07,20,FM308_stack
58.56,4.54054e-07,20,FM308_stack
58.58,3.4054e-07,20,FM308_stack
58.6,0.0,20,FM308_stack
58.62,0.0,20,FM308_stack
58.64,3.4054e-07,20,FM308_stack
58.66,1.13513e-07,20,FM308_stack
58.68,2.27027e-07,20,FM308_stack
58.7,1.13513e-07,20,FM308_stack
58.72,2.27027e-07,20,FM308_stack
58.74,0.0,20,FM308_stack
58.76,2.27027e-07,20,FM308_stack
58.78,3.4054e-07,20,FM308_stack
58.8,0.0,20,FM308_stack
58.82,2.27027e-07,20,FM308_stack
58.84,0.0,20,FM308_stack
58.86,1.13513e-07,20,FM308_stack
58.88,2.27027e-07,20,FM308_stack
58.9,2.27027e-07,20,FM308_stack
58.92,2.27027e-07,20,FM308_stack
58.94,2.27027e-07,20,FM308_stack
58.96,2.27027e-07,20,FM308_stack
58.98,1.13513e-07,20,FM308_stack
59.0,2.27027e-07,20,FM308_stack
59.02,1.13513e-07,20,FM308_stack
59.04,3.4054e-07,20,FM308_stack
59.06,3.4054e-07,20,FM308_stack
59.08,0.0,20,FM308_stack
59.1,3.4054e-07,20,FM308_stack
59.12,3.4054e-07,20,FM308_stack
59.14,2.27027e-07,20,FM308_stack
59.16,4.54054e-07,20,FM308_stack
59.18,1.13513e-07,20,FM308_stack
59.2,3.4054e-07,20,FM308_stack
59.22,2.27027e-07,20,FM308_stack
59.24,3.4054e-07,20,FM308_stack
59.26,2.27027e-07,20,FM308_stack
59.28,3.4054e-07,20,FM308_stack
59.3,0.0,20,FM308_stack
59.32,3.4054e-07,20,FM308_stack
59.34,1.13513e-07,20,FM308_stack
59.36,0.0,20,FM308_stack
59.38,3.4054e-07,20,FM308_stack
59.4,3.4054e-07,20,FM308_stack
59.42,2.27027e-07,20,FM308_stack
59.44,1.13513e-07,20,FM308_stack
59.46,2.27027e-07,20,FM308_stack
59.48,1.13513e-07,20,FM308_stack
59.5,2.27027e-07,20,FM308_stack
59.52,0.0,20,FM308_stack
59.54,3.4054e-07,20,FM308_stack
59.56,3.4054e-07,20,FM308_stack
59.58,1.13513e-07,20,FM308_stack
59.6,3.4054e-07,20,FM308_stack
59.62,2.27027e-07,20,FM308_stack
59.64,0.0,20,FM308_stack
59.66,2.27027e-07,20,FM308_stack
59.68,1.13513e-07,20,FM308_stack
59.7,1.13513e-07,20,FM308_stack
59.72,4.54054e-07,20,FM308_stack
59.74,3.4054e-07,20,FM308_stack
59.76,2.27027e-07,20,FM308_stack
59.78,2.27027e-07,20,FM308_stack
59.8,2.27027e-07,20,FM308_stack
59.82,0.0,20,FM308_stack
59.84,1.13513e-07,20,FM308_stack
59.86,0.0,20,FM308_stack
59.88,0.0,20,FM308_stack
59.9,2.27027e-07,20,FM308_stack
59.92,0.0,20,FM308_stack
59.94,2.27027e-07,20,FM308_stack
59.96,1.13513e-07,20,FM308_stack
59.98,3.4054e-07,20,FM308_stack
60.0,5.67567e-07,20,FM308_stack